Folder: Datasets/concrete_data

File: training_set_label.csv
Cement (component 1)(kg in a m^3 mixture),Blast Furnace Slag (component 2)(kg in a m^3 mixture),Fly Ash (component 3)(kg in a m^3 mixture),Water  (component 4)(kg in a m^3 mixture),Superplasticizer (component 5)(kg in a m^3 mixture),Coarse Aggregate  (component 6)(kg in a m^3 mixture),Fine Aggregate (component 7)(kg in a m^3 mixture),Age (day),"Concrete compressive strength(MPa, megapascals) "
298.2,0.0,107.0,209.7,11.1,879.6,744.2,28,31.8752
297.0,0.0,0.0,186.0,0.0,1040.0,734.0,7,30.9575
144.0,170.0,133.0,192.0,8.0,814.0,805.0,28,29.8681
260.0,101.0,78.0,171.0,10.0,936.0,763.0,28,49.7733
277.19,97.82,24.46,160.7,11.19,1061.7,782.46,28,63.1422
231.75,0.0,121.62,173.96,6.72,1056.4,778.45,28,33.7292
181.9,272.8,0.0,185.7,0.0,1012.4,714.3,28,27.9355
491.0,26.0,123.0,201.0,3.93,822.0,699.0,56,61.8558
298.0,137.0,107.0,201.0,6.0,878.0,655.0,28,53.524
286.3,200.9,0.0,144.7,11.2,1004.6,803.7,56,72.9948
236.0,0.0,0.0,194.0,0.0,968.0,885.0,90,21.946
540.0,0.0,0.0,173.0,0.0,1125.0,613.0,7,52.6139
376.0,0.0,0.0,214.6,0.0,1003.5,762.36,3,16.2785
212.52,0.0,100.37,159.32,8.71,1007.8,903.59,3,13.5413
295.0,0.0,0.0,185.0,0.0,1069.0,769.0,28,25.1797
310.0,0.0,0.0,192.0,0.0,970.0,850.0,90,34.6806
155.0,183.0,0.0,193.0,9.0,1047.0,697.0,28,18.2849
212.57,0.0,100.39,159.35,10.37,1003.8,903.79,100,47.7393
252.0,0.0,0.0,185.0,0.0,1111.0,784.0,28,19.6914
385.0,0.0,0.0,186.0,0.0,966.0,763.0,3,14.6996
425.0,106.3,0.0,151.4,18.6,936.0,803.7,56,64.9004
261.0,100.0,78.0,201.0,9.0,864.0,761.0,28,32.3985
142.0,167.0,130.0,174.0,11.0,883.0,785.0,28,44.6091
218.23,54.64,123.78,140.75,11.91,1075.7,792.67,28,55.5097
167.35,129.9,128.62,175.46,7.79,1006.3,746.6,3,14.9409
388.6,97.1,0.0,157.9,12.1,852.1,925.7,7,34.9013
147.8,175.1,0.0,171.2,2.2,1000.0,828.5,28,26.9227
212.07,0.0,121.62,180.31,5.69,1057.6,779.32,3,12.4726
310.0,0.0,0.0,192.0,0.0,1012.0,830.0,7,17.2438
162.0,190.1,148.1,178.8,18.8,838.1,741.4,28,33.7623
500.0,0.0,0.0,200.0,0.0,1125.0,613.0,90,47.2222
385.0,0.0,0.0,186.0,0.0,966.0,763.0,7,23.2216
144.0,15.0,195.0,176.0,6.0,1021.0,709.0,28,15.3408
233.81,0.0,94.58,197.89,4.567,947.04,852.16,3,10.3835
297.16,0.0,117.54,174.8,9.52,1022.8,753.45,28,47.4015
439.0,177.0,0.0,186.0,11.1,884.9,707.9,28,65.9966
172.38,13.61,172.37,156.76,4.14,1006.3,856.4,56,35.8528
525.0,0.0,0.0,189.0,0.0,1125.0,613.0,180,61.9218
304.0,76.0,0.0,228.0,0.0,932.0,670.0,365,55.2601
136.4,161.6,125.8,171.6,10.4,922.6,764.4,28,29.0731
255.0,99.0,77.0,189.0,6.0,919.0,749.0,28,33.7981
427.5,47.5,0.0,228.0,0.0,932.0,594.0,90,41.543
446.0,24.0,79.0,162.0,11.64,967.0,712.0,3,23.3457
303.6,139.9,0.0,213.5,6.2,895.5,722.5,28,33.4196
165.0,128.5,132.1,175.06,8.08,1005.8,746.6,14,33.088
259.9,100.6,78.4,170.6,10.4,935.7,762.9,28,49.7733
154.0,174.0,185.0,228.0,7.0,845.0,612.0,28,24.3385
323.7,282.8,0.0,183.8,10.3,942.7,659.9,3,28.2961
134.7,0.0,165.7,180.2,10.0,961.0,804.9,28,13.2938
233.81,0.0,94.58,197.89,4.567,947.04,852.16,100,34.5565
349.0,0.0,0.0,192.0,0.0,1047.0,806.9,3,15.0492
212.0,141.3,0.0,203.5,0.0,973.4,750.0,28,33.0038
359.0,19.0,141.0,154.0,10.91,942.0,801.0,7,35.7543
350.0,0.0,0.0,203.0,0.0,974.0,775.0,7,18.1263
491.0,26.0,123.0,201.0,3.93,822.0,699.0,28,57.916
313.0,145.0,0.0,178.0,8.0,1002.0,689.0,28,41.0514
321.0,164.0,0.0,190.0,5.0,870.0,774.0,28,57.2127
286.3,200.9,0.0,144.7,11.2,1004.6,803.7,7,37.997
289.0,134.0,0.0,195.0,6.0,924.0,760.0,28,46.2432
238.05,0.0,94.11,186.66,7.0,949.91,847.01,28,30.2335
214.9,53.8,121.89,155.63,9.61,1014.3,780.58,14,38.6038
277.0,116.8,91.0,190.6,7.0,946.5,665.6,28,43.5783
275.07,0.0,121.35,159.48,9.9,1053.6,777.5,56,56.8473
145.7,172.6,0.0,181.9,3.4,985.8,816.8,28,23.7442
425.0,106.3,0.0,151.4,18.6,936.0,803.7,91,66.6999
393.0,0.0,0.0,192.0,0.0,940.0,758.0,3,19.1054
251.37,0.0,118.27,192.94,5.75,1043.6,754.3,14,20.7256
480.0,0.0,0.0,192.0,0.0,936.2,712.2,7,34.5696
165.0,128.5,132.1,175.06,8.08,1005.8,746.6,100,55.0202
304.0,76.0,0.0,228.0,0.0,932.0,670.0,90,49.1851
173.0,116.0,0.0,192.0,0.0,946.8,856.8,3,6.94095
251.81,0.0,99.94,146.14,12.35,1006.0,899.76,3,21.0221
387.0,20.0,94.0,157.0,14.32,938.0,845.0,56,56.3371
475.0,118.8,0.0,181.1,8.9,852.1,781.5,7,55.5993
162.0,214.0,164.0,202.0,10.0,820.0,680.0,28,30.6472
228.0,342.1,0.0,185.7,0.0,955.8,674.3,28,39.6993
254.0,0.0,0.0,198.0,0.0,968.0,863.0,90,26.9447
166.8,250.2,0.0,203.5,0.0,975.6,692.6,28,33.9477
222.36,0.0,96.67,189.29,4.46,967.08,870.32,56,29.4475
284.0,15.0,141.0,179.0,5.46,842.0,801.0,7,24.13166
425.0,106.3,0.0,153.5,16.5,852.1,887.1,7,49.201
342.0,38.0,0.0,228.0,0.0,932.0,670.0,180,52.1244
165.0,0.02,143.57,163.81,0.0,1005.6,900.9,14,16.8784
213.74,0.0,174.74,154.79,10.16,1053.5,776.35,100,50.0766
181.9,272.8,0.0,185.7,0.0,1012.4,714.3,7,12.3726
233.81,0.0,94.58,197.89,4.567,947.04,852.16,14,22.1391
203.5,135.7,0.0,185.7,0.0,1076.2,759.3,7,11.9576
264.5,111.0,86.5,195.5,5.9,832.6,790.4,28,41.5423
170.3,155.5,0.0,185.7,0.0,1026.6,724.3,7,10.7303
480.0,0.0,0.0,192.0,0.0,936.2,712.2,90,54.3155
289.0,0.0,0.0,192.0,0.0,913.2,895.3,7,14.5969
154.0,144.0,112.0,220.0,10.0,923.0,658.0,28,16.4992
491.0,26.0,123.0,201.0,3.93,822.0,699.0,3,29.549
157.0,236.0,0.0,192.0,0.0,935.4,781.2,90,43.377
316.1,210.7,0.0,185.7,0.0,977.0,689.3,28,38.7003
331.0,0.0,0.0,192.0,0.0,978.0,825.0,7,16.2647
289.0,0.0,0.0,192.0,0.0,913.2,895.3,28,25.5734
380.0,95.0,0.0,228.0,0.0,932.0,594.0,365,43.6983
203.5,305.3,0.0,203.5,0.0,963.4,630.0,7,19.5391
425.0,106.3,0.0,153.5,16.5,852.1,887.1,56,64.3005
475.0,118.8,0.0,181.1,8.9,852.1,781.5,91,74.1945
228.0,342.1,0.0,185.7,0.0,955.8,674.3,7,21.9171
289.0,0.0,0.0,192.0,0.0,913.2,895.3,3,11.6549
310.0,0.0,0.0,192.0,0.0,1012.0,830.0,90,35.7631
275.0,0.0,0.0,183.0,0.0,1088.0,808.0,7,14.2032
218.85,0.0,124.13,158.49,11.33,1078.7,794.91,14,26.0484
250.0,0.0,95.69,191.84,5.33,948.9,857.2,3,8.48745
480.0,0.0,0.0,192.0,0.0,936.0,721.0,90,54.2756
287.3,120.5,93.9,187.6,9.2,904.4,695.9,28,43.7983
374.0,189.2,0.0,170.1,10.1,926.1,756.7,91,64.9004
480.0,0.0,0.0,192.0,0.0,936.0,721.0,28,43.892
350.0,0.0,0.0,203.0,0.0,974.0,775.0,28,27.3377
139.6,209.4,0.0,192.0,0.0,1047.0,806.9,180,44.2078
315.0,137.0,0.0,145.0,5.9,1130.0,745.0,28,81.7512
356.0,119.0,0.0,160.0,9.03,1061.0,657.0,28,58.9985
322.0,149.0,0.0,186.0,8.0,951.0,709.0,28,52.4209
229.97,0.0,118.31,195.47,4.63,1029.4,758.59,56,31.5366
266.0,114.0,0.0,228.0,0.0,932.0,670.0,180,48.6956
160.0,250.0,0.0,168.0,12.0,1049.0,688.0,28,39.4518
331.0,0.0,0.0,192.0,0.0,978.0,825.0,90,37.2317
374.0,189.2,0.0,170.1,10.1,926.1,756.7,3,34.398
252.1,97.1,75.6,193.8,8.3,835.5,821.4,28,33.3996
252.0,0.0,0.0,186.0,0.0,1111.0,784.0,7,11.466
190.34,0.0,125.18,166.61,9.88,1079.0,798.9,3,12.5485
203.5,305.3,0.0,203.5,0.0,963.4,630.0,3,9.56165
192.0,288.0,0.0,192.0,0.0,929.8,716.1,7,21.4806
173.54,50.05,173.53,164.77,6.47,1006.2,793.5,14,33.0052
182.04,45.21,121.97,170.21,8.19,1059.4,780.65,28,31.2677
425.0,106.3,0.0,153.5,16.5,852.1,887.1,91,65.1969
290.35,0.0,96.18,168.08,9.41,961.18,865.0,28,34.7358
296.0,0.0,0.0,186.0,0.0,1090.0,769.0,7,18.9123
331.0,0.0,0.0,192.0,0.0,1025.0,821.0,7,17.4368
250.2,166.8,0.0,203.5,0.0,977.6,694.1,7,19.3501
500.1,0.0,0.0,200.0,3.0,1124.4,613.2,28,44.1334
238.05,0.0,94.11,186.66,7.0,949.91,847.01,100,44.2988
238.2,158.8,0.0,185.7,0.0,1040.6,734.3,7,15.6911
136.0,196.0,98.0,199.0,6.0,847.0,783.0,28,26.9654
325.0,0.0,0.0,184.0,0.0,1063.0,783.0,28,30.5714
475.0,0.0,0.0,228.0,0.0,932.0,594.0,365,41.9346
326.0,0.0,138.0,199.0,11.0,801.0,792.0,28,40.6791
289.0,133.7,0.0,194.9,5.5,924.1,760.1,28,46.2473
236.0,0.0,0.0,194.0,0.0,968.0,885.0,3,6.46728
500.0,0.0,0.0,200.0,0.0,1125.0,613.0,28,44.092
172.38,13.61,172.37,156.76,4.14,1006.3,856.4,3,21.291
313.3,262.2,0.0,175.5,8.6,1046.9,611.8,56,64.9004
141.3,212.0,0.0,203.5,0.0,971.8,748.5,7,10.3939
388.6,97.1,0.0,157.9,12.1,852.1,925.7,3,28.0961
446.0,24.0,79.0,162.0,11.64,967.0,712.0,28,44.4229
349.0,0.0,0.0,192.0,0.0,1056.0,809.0,3,15.8717
321.4,0.0,127.9,182.5,11.5,870.1,779.7,28,37.2655
531.3,0.0,0.0,141.8,28.2,852.1,893.7,56,58.7985
231.75,0.0,121.62,173.96,6.72,1056.4,778.45,3,15.4374
173.0,116.0,0.0,192.0,0.0,946.8,856.8,7,11.3922
116.0,173.0,0.0,192.0,0.0,909.8,891.9,7,10.0898
150.9,0.0,183.9,166.6,11.6,991.2,772.2,28,15.5697
424.0,22.0,132.0,168.0,8.92,822.0,750.0,7,40.2851
200.0,133.0,0.0,192.0,0.0,965.4,806.2,3,11.4143
167.0,75.4,167.0,164.03,7.91,1007.3,770.1,28,41.4099
141.3,212.0,0.0,203.5,0.0,971.8,748.5,3,4.82771
297.16,0.0,117.54,174.8,9.52,1022.8,753.45,3,21.9115
446.0,24.0,79.0,162.0,11.64,967.0,712.0,7,39.3001
359.0,19.0,141.0,154.0,10.91,942.0,801.0,56,68.7506
425.0,106.3,0.0,153.5,16.5,852.1,887.1,28,60.2947
500.0,0.0,0.0,200.0,0.0,1125.0,613.0,180,51.0419
302.0,0.0,0.0,203.0,0.0,974.0,817.0,28,21.753
249.1,0.0,98.75,158.11,12.8,987.76,889.01,100,51.0557
313.0,0.0,113.0,178.0,8.0,1002.0,689.0,28,36.8042
277.0,0.0,0.0,191.0,0.0,968.0,856.0,90,31.2539
153.0,102.0,0.0,192.0,0.0,888.0,943.1,7,8.37438
469.0,117.2,0.0,137.8,32.2,852.1,840.5,3,40.1965
300.0,0.0,0.0,184.0,0.0,1075.0,795.0,7,15.5753
186.2,124.1,0.0,185.7,0.0,1083.4,764.3,7,7.99585
427.5,47.5,0.0,228.0,0.0,932.0,594.0,28,37.4275
255.0,0.0,0.0,192.0,0.0,889.8,945.0,28,18.7462
277.19,97.82,24.46,160.7,11.19,1061.7,782.46,100,66.9481
288.0,192.0,0.0,192.0,0.0,932.0,717.8,90,50.5269
250.0,0.0,95.69,191.84,5.33,948.9,857.2,56,39.64487
531.3,0.0,0.0,141.8,28.2,852.1,893.7,3,41.2996
316.1,210.7,0.0,185.7,0.0,977.0,689.3,7,24.4378
166.09,0.0,163.27,176.46,4.49,1058.6,780.09,3,10.7627
190.0,190.0,0.0,228.0,0.0,932.0,670.0,365,53.6923
349.0,0.0,0.0,192.0,0.0,1047.0,806.0,180,41.0514
252.31,0.0,98.75,146.25,14.17,987.76,889.01,28,50.6006
213.72,98.05,24.51,181.71,6.86,1065.8,785.38,100,53.9032
295.71,0.0,95.64,171.54,8.87,955.14,859.2,14,35.2322
349.0,0.0,0.0,192.0,0.0,1047.0,806.0,7,18.1263
322.0,0.0,0.0,203.0,0.0,974.0,800.0,28,25.1797
500.0,0.0,0.0,200.0,0.0,1125.0,613.0,7,33.2121
424.0,22.0,132.0,178.0,8.48,822.0,750.0,56,65.6972
212.0,141.3,0.0,203.5,0.0,973.4,750.0,3,6.80858
296.0,0.0,0.0,192.0,0.0,1085.0,765.0,90,29.3924
249.1,0.0,98.75,158.11,12.8,987.76,889.01,3,15.3615
249.1,0.0,98.75,158.11,12.8,987.76,889.01,56,42.0305
159.0,187.0,0.0,176.0,11.0,990.0,789.0,28,32.7639